{
    "resourceType": "Bundle",
    "id": "{{$randomUUID}}",
    "meta": {
        "profile": [
            "http://fhir.health.gov.lk/ips/StructureDefinition/hims-transactional-bundle"
        ]
    },
    "identifier": {
        "system": "http://fhir.health.gov.lk/ips/identifier/hims-transactional",
        "value": "{{$randomUUID}}"
    },
    "type": "transaction",
    "timestamp": "{{timestamp}}",
    "entry": [
        {
            "fullUrl": "http://hapi-fhir:8080/fhir/Patient/{{patient}}",
            "resource": {
                "resourceType": "Patient",
                "id": "{{patient}}",
                "meta": {
                    "profile": [
                        "http://fhir.health.gov.lk/ips/StructureDefinition/ips-patient"
                    ]
                },
                "extension": [
                    {
                        "url": "http://fhir.health.gov.lk/ips/StructureDefinition/patient-registration-system",
                        "valueReference": {
                            "reference": "Device/{{deviceinformation}}"
                        }
                    }
                ],
                "identifier": [
                    {
                        "type": {
                            "coding": [
                                {
                                    "system": "http://fhir.health.gov.lk/ips/CodeSystem/cs-identifier-types",
                                    "code": "PHN"
                                }
                            ],
                            "text": "Personal Health Number"
                        },
                        "system": "http://fhir.health.gov.lk/ips/identifier/phn",
                        "value": "{{PHN}}"
                    },
                    {
                        "type": {
                            "coding": [
                                {
                                    "system": "http://terminology.hl7.org/CodeSystem/v2-0203",
                                    "code": "PPN"
                                }
                            ],
                            "text": "Passport number"
                        },
                        "system": "http://fhir.health.gov.lk/ips/identifier/passport",
                        "value": "{{PPN1}}"
                    },
                    {
                        "type": {
                            "coding": [
                                {
                                    "system": "http://terminology.hl7.org/CodeSystem/v2-0203",
                                    "code": "PPN"
                                }
                            ],
                            "text": "Passport number"
                        },
                        "system": "http://fhir.health.gov.lk/ips/identifier/passport",
                        "value": "{{PPN2}}"
                    },
                    {
                        "type": {
                            "coding": [
                                {
                                    "system": "http://terminology.hl7.org/CodeSystem/v2-0203",
                                    "code": "DL"
                                }
                            ],
                            "text": "Driver's license number"
                        },
                        "system": "http://fhir.health.gov.lk/ips/identifier/drivers",
                        "value": "{{DL1}}"
                    },
                    {
                        "type": {
                            "coding": [
                                {
                                    "system": "http://terminology.hl7.org/CodeSystem/v2-0203",
                                    "code": "DL"
                                }
                            ],
                            "text": "Driver's license number"
                        },
                        "system": "http://fhir.health.gov.lk/ips/identifier/drivers",
                        "value": "{{DL2}}"
                    },
                    {
                        "type": {
                            "coding": [
                                {
                                    "system": "http://fhir.health.gov.lk/ips/CodeSystem/cs-identifier-types",
                                    "code": "NIC"
                                }
                            ],
                            "text": "National identity number"
                        },
                        "system": "http://fhir.health.gov.lk/ips/identifier/nic",
                        "value": "{{NIC1}}"
                    },
                    {
                        "type": {
                            "coding": [
                                {
                                    "system": "http://fhir.health.gov.lk/ips/CodeSystem/cs-identifier-types",
                                    "code": "NIC"
                                }
                            ],
                            "text": "National identity number"
                        },
                        "system": "http://fhir.health.gov.lk/ips/identifier/nic",
                        "value": "{{NIC2}}"
                    },
                    {
                        "type": {
                            "coding": [
                                {
                                    "system": "http://fhir.health.gov.lk/ips/CodeSystem/cs-identifier-types",
                                    "code": "SCN"
                                }
                            ],
                            "text": "Senior Citizen Number"
                        },
                        "system": "http://fhir.health.gov.lk/ips/identifier/scn",
                        "value": "{{SCN1}}"
                    },
                    {
                        "type": {
                            "coding": [
                                {
                                    "system": "http://fhir.health.gov.lk/ips/CodeSystem/cs-identifier-types",
                                    "code": "SCN"
                                }
                            ],
                            "text": "Senior Citizen Number"
                        },
                        "system": "http://fhir.health.gov.lk/ips/identifier/scn",
                        "value": "{{SCN2}}"
                    }
                ],
                "name": [
                    {
                        "use": "official",
                        "family": "{{$randomLastName}}",
                        "given": [
                            "{{$randomFirstName}}",
                            "{{$randomFirstName}}"
                        ],
                        "prefix": [
                            "{{$randomNamePrefix}}"
                        ]
                    }
                ],
                "telecom": [
                    {
                        "system": "phone",
                        "value": "{{$randomPhoneNumber}}"
                    },
                    {
                        "system": "email",
                        "value": "{{$randomEmail}}"
                    },
                    {
                        "system": "email",
                        "value": "{{$randomEmail}}"
                    }
                ],
                "gender": "{{gender}}",
                "birthDate": "{{birthdate}}",
                "address": [
                    {
                        "type": "postal",
                        "line": [
                            "177",
                            "Nawala Road"
                        ],
                        "city": "Nugegoda",
                        "district": "Ampara",
                        "state": "Colombo",
                        "postalCode": "32350",
                        "country": "LK"
                    }
                ]
            },
            "request": {
                "method": "PUT",
                "url": "Patient/{{patient}}"
            }
        },
        {
            "fullUrl": "http://hapi-fhir:8080/fhir/Encounter/{{encounter}}",
            "resource": {
                "resourceType": "Encounter",
                "id": "{{encounter}}",
                "meta": {
                    "profile": [
                        "http://fhir.health.gov.lk/ips/StructureDefinition/target-facility-encounter"
                    ]
                },
                "status": "finished",
                "class": {
                    "system": "http://terminology.hl7.org/CodeSystem/v3-ActCode",
                    "code": "AMB"
                },
                "subject": {
                    "reference": "Patient/{{patient}}"
                },
                "participant": [
                    {
                        "individual": {
                            "reference": "Practitioner/{{practitioner}}"
                        }
                    }
                ],
                "period": {
                    "start": "{{encounterDate}}",
                    "end": "{{encounterDate}}"
                },
                "reasonCode": [
                    {
                        "coding": [
                            {
                                "system": "http://snomed.info/sct",
                                "code": "60046008"
                            }
                        ]
                    }
                ],
                "location": [
                    {
                        "location": {
                            "reference": "Location/{{location}}"
                        }
                    }
                ]
            },
            "request": {
                "method": "PUT",
                "url": "Encounter/{{encounter}}"
            }
        },
        {
            "fullUrl": "http://hapi-fhir:8080/fhir/Condition/{{condition}}",
            "resource": {
                "resourceType": "Condition",
                "id": "{{condition}}",
                "meta": {
                    "profile": [
                        "http://fhir.health.gov.lk/ips/StructureDefinition/medical-history"
                    ]
                },
                "clinicalStatus": {
                    "coding": [
                        {
                            "system": "http://terminology.hl7.org/CodeSystem/condition-clinical",
                            "code": "active"
                        }
                    ]
                },
                "verificationStatus": {
                    "coding": [
                        {
                            "system": "http://terminology.hl7.org/CodeSystem/condition-ver-status",
                            "code": "confirmed"
                        }
                    ]
                },
                "category": [
                    {
                        "coding": [
                            {
                                "system": "http://terminology.hl7.org/CodeSystem/condition-category",
                                "code": "problem-list-item"
                            }
                        ]
                    }
                ],
                "code": {
                    "coding": [
                        {
                            "system": "http://snomed.info/sct",
                            "code": "313435000"
                        }
                    ]
                },
                "subject": {
                    "reference": "Patient/{{patient}}"
                },
                "encounter": {
                    "reference": "Encounter/{{encounter}}"
                },
                "recordedDate": "{{conditionRecordedDate}}",
                "recorder": {
                    "reference": "Practitioner/{{practitioner}}"
                },
                "asserter": {
                    "reference": "Practitioner/{{practitioner}}"
                }
            },
            "request": {
                "method": "PUT",
                "url": "Condition/{{condition}}"
            }
        },
        {
            "fullUrl": "http://hapi-fhir:8080/fhir/Observation/{{weight}}",
            "resource": {
                "resourceType": "Observation",
                "id": "{{weight}}",
                "meta": {
                    "profile": [
                        "http://fhir.health.gov.lk/ips/StructureDefinition/weight"
                    ]
                },
                "device": {
                    "reference": "Device/{{deviceinformation}}"
                },
                "status": "final",
                "category": [
                    {
                        "coding": [
                            {
                                "system": "http://terminology.hl7.org/CodeSystem/observation-category",
                                "code": "vital-signs"
                            }
                        ]
                    }
                ],
                "code": {
                    "coding": [
                        {
                            "system": "http://loinc.org",
                            "code": "29463-7"
                        }
                    ],
                    "text": "Body Weight"
                },
                "subject": {
                    "reference": "Patient/{{patient}}"
                },
                "encounter": {
                    "reference": "Encounter/{{encounter}}"
                },
                "effectiveDateTime": "{{weightObservationDate}}",
                "performer": [
                    {
                        "reference": "Organization/{{organization}}"
                    },
                    {
                        "reference": "Practitioner/{{practitioner}}"
                    }
                ],
                "valueQuantity": {
                    "value": 110,
                    "unit": "kg",
                    "system": "http://unitsofmeasure.org",
                    "code": "kg"
                }
            },
            "request": {
                "method": "PUT",
                "url": "Observation/{{weight}}"
            }
        },
        {
            "fullUrl": "http://hapi-fhir:8080/fhir/Observation/{{tobaccoSmoker}}",
            "resource": {
                "resourceType": "Observation",
                "id": "{{tobaccoSmoker}}",
                "meta": {
                    "profile": [
                        "http://fhir.health.gov.lk/ips/StructureDefinition/risk-behaviour-tobacco-smoker"
                    ]
                },
                "device": {
                    "reference": "Device/{{deviceinformation}}"
                },
                "status": "final",
                "category": [
                    {
                        "coding": [
                            {
                                "system": "http://terminology.hl7.org/CodeSystem/observation-category",
                                "code": "social-history"
                            }
                        ]
                    }
                ],
                "code": {
                    "coding": [
                        {
                            "system": "http://loinc.org",
                            "code": "81229-7"
                        }
                    ],
                    "text": "Tobacco smoking status for tobacco smoker"
                },
                "subject": {
                    "reference": "Patient/{{patient}}"
                },
                "encounter": {
                    "reference": "Encounter/{{encounter}}"
                },
                "effectiveDateTime": "{{tobaccoObservationDate}}",
                "performer": [
                    {
                        "reference": "Organization/{{organization}}"
                    },
                    {
                        "reference": "Practitioner/{{practitioner}}"
                    }
                ],
                "valueCodeableConcept": {
                    "coding": [
                        {
                            "system": "http://loinc.org",
                            "code": "LA18982-1"
                        }
                    ],
                    "text": "Light tobacco smoker"
                }
            },
            "request": {
                "method": "PUT",
                "url": "Observation/{{tobaccoSmoker}}"
            }
        },
        {
            "fullUrl": "http://hapi-fhir:8080/fhir/Observation/{{physicalActivity}}",
            "resource": {
                "resourceType": "Observation",
                "id": "{{physicalActivity}}",
                "meta": {
                    "profile": [
                        "http://fhir.health.gov.lk/ips/StructureDefinition/risk-behaviour-physical-activity"
                    ]
                },
                "device": {
                    "reference": "Device/{{deviceinformation}}"
                },
                "status": "final",
                "category": [
                    {
                        "coding": [
                            {
                                "system": "http://terminology.hl7.org/CodeSystem/observation-category",
                                "code": "activity"
                            }
                        ]
                    }
                ],
                "code": {
                    "coding": [
                        {
                            "system": "http://snomed.info/sct",
                            "code": "106020009"
                        }
                    ],
                    "text": "Physical Activity"
                },
                "subject": {
                    "reference": "Patient/{{patient}}"
                },
                "encounter": {
                    "reference": "Encounter/{{encounter}}"
                },
                "effectiveDateTime": "{{physicalActivityObservationDate}}",
                "performer": [
                    {
                        "reference": "Organization/{{organization}}"
                    },
                    {
                        "reference": "Practitioner/{{practitioner}}"
                    }
                ],
                "valueCodeableConcept": {
                    "coding": [
                        {
                            "system": "http://snomed.info/sct",
                            "code": "9011000175102"
                        }
                    ],
                    "text": "Physically not active"
                }
            },
            "request": {
                "method": "PUT",
                "url": "Observation/{{physicalActivity}}"
            }
        },
        {
            "fullUrl": "http://hapi-fhir:8080/fhir/Observation/{{bloodPressure}}",
            "resource": {
                "resourceType": "Observation",
                "id": "{{bloodPressure}}",
                "meta": {
                    "profile": [
                        "http://fhir.health.gov.lk/ips/StructureDefinition/blood-pressure"
                    ]
                },
                "device": {
                    "reference": "Device/{{deviceinformation}}"
                },
                "status": "final",
                "category": [
                    {
                        "coding": [
                            {
                                "system": "http://terminology.hl7.org/CodeSystem/observation-category",
                                "code": "vital-signs"
                            }
                        ]
                    }
                ],
                "code": {
                    "coding": [
                        {
                            "system": "http://loinc.org",
                            "code": "85354-9"
                        }
                    ],
                    "text": "Blood Pressure"
                },
                "subject": {
                    "reference": "Patient/{{patient}}"
                },
                "encounter": {
                    "reference": "Encounter/{{encounter}}"
                },
                "effectiveDateTime": "{{bloodPressureObservationDate}}",
                "performer": [
                    {
                        "reference": "Organization/{{organization}}"
                    },
                    {
                        "reference": "Practitioner/{{practitioner}}"
                    }
                ],
                "component": [
                    {
                        "code": {
                            "coding": [
                                {
                                    "system": "http://loinc.org",
                                    "code": "8480-6"
                                }
                            ]
                        },
                        "valueQuantity": {
                            "value": 106,
                            "unit": "mmHg",
                            "system": "http://unitsofmeasure.org",
                            "code": "mm[Hg]"
                        }
                    },
                    {
                        "code": {
                            "coding": [
                                {
                                    "system": "http://loinc.org",
                                    "code": "8462-4"
                                }
                            ]
                        },
                        "valueQuantity": {
                            "value": 60,
                            "unit": "mmHg",
                            "system": "http://unitsofmeasure.org",
                            "code": "mm[Hg]"
                        }
                    }
                ]
            },
            "request": {
                "method": "PUT",
                "url": "Observation/{{bloodPressure}}"
            }
        },
        {
            "fullUrl": "http://hapi-fhir:8080/fhir/Observation/{{height}}",
            "resource": {
                "resourceType": "Observation",
                "id": "{{height}}",
                "meta": {
                    "profile": [
                        "http://fhir.health.gov.lk/ips/StructureDefinition/height"
                    ]
                },
                "device": {
                    "reference": "Device/{{deviceinformation}}"
                },
                "status": "final",
                "category": [
                    {
                        "coding": [
                            {
                                "system": "http://terminology.hl7.org/CodeSystem/observation-category",
                                "code": "vital-signs"
                            }
                        ]
                    }
                ],
                "code": {
                    "coding": [
                        {
                            "system": "http://loinc.org",
                            "code": "8302-2"
                        }
                    ],
                    "text": "Body Height"
                },
                "subject": {
                    "reference": "Patient/{{patient}}"
                },
                "encounter": {
                    "reference": "Encounter/{{encounter}}"
                },
                "effectiveDateTime": "{{heightObservationDate}}",
                "performer": [
                    {
                        "reference": "Organization/{{organization}}"
                    },
                    {
                        "reference": "Practitioner/{{practitioner}}"
                    }
                ],
                "valueQuantity": {
                    "value": 185,
                    "unit": "cm",
                    "system": "http://unitsofmeasure.org",
                    "code": "cm"
                }
            },
            "request": {
                "method": "PUT",
                "url": "Observation/{{height}}"
            }
        },
        {
            "fullUrl": "http://hapi-fhir:8080/fhir/Observation/{{bmi}}",
            "resource": {
                "resourceType": "Observation",
                "id": "{{bmi}}",
                "meta": {
                    "profile": [
                        "http://fhir.health.gov.lk/ips/StructureDefinition/bmi"
                    ]
                },
                "device": {
                    "reference": "Device/{{deviceinformation}}"
                },
                "status": "final",
                "category": [
                    {
                        "coding": [
                            {
                                "system": "http://terminology.hl7.org/CodeSystem/observation-category",
                                "code": "vital-signs"
                            }
                        ]
                    }
                ],
                "code": {
                    "coding": [
                        {
                            "system": "http://loinc.org",
                            "code": "39156-5"
                        }
                    ],
                    "text": "Body mass index (BMI)"
                },
                "subject": {
                    "reference": "Patient/{{patient}}"
                },
                "encounter": {
                    "reference": "Encounter/{{encounter}}"
                },
                "effectiveDateTime": "{{bmiObservationDate}}",
                "performer": [
                    {
                        "reference": "Organization/{{organization}}"
                    },
                    {
                        "reference": "Practitioner/{{practitioner}}"
                    }
                ],
                "valueQuantity": {
                    "value": 16.2,
                    "unit": "kg/m2",
                    "system": "http://unitsofmeasure.org",
                    "code": "kg/m2"
                },
                "derivedFrom": [
                    {
                        "reference": "Observation/{{weight}}"
                    },
                    {
                        "reference": "Observation/{{height}}"
                    }
                ]
            },
            "request": {
                "method": "PUT",
                "url": "Observation/{{bmi}}"
            }
        },
        {
            "fullUrl": "http://hapi-fhir:8080/fhir/Observation/{{randonBloodSugar}}",
            "resource": {
                "resourceType": "Observation",
                "id": "{{randonBloodSugar}}",
                "meta": {
                    "profile": [
                        "http://fhir.health.gov.lk/ips/StructureDefinition/random-blood-sugar"
                    ]
                },
                "device": {
                    "reference": "Device/{{deviceinformation}}"
                },
                "status": "final",
                "category": [
                    {
                        "coding": [
                            {
                                "system": "http://terminology.hl7.org/CodeSystem/observation-category",
                                "code": "laboratory"
                            }
                        ]
                    }
                ],
                "code": {
                    "coding": [
                        {
                            "system": "http://loinc.org",
                            "code": "15074-8"
                        }
                    ],
                    "text": "Glucose"
                },
                "subject": {
                    "reference": "Patient/{{patient}}"
                },
                "encounter": {
                    "reference": "Encounter/{{encounter}}"
                },
                "effectiveDateTime": "{{randonBloodSugarObservationDate}}",
                "performer": [
                    {
                        "reference": "Organization/{{organization}}"
                    },
                    {
                        "reference": "Practitioner/{{practitioner}}"
                    }
                ],
                "valueQuantity": {
                    "value": 6.3,
                    "unit": "mmol/L",
                    "system": "http://unitsofmeasure.org",
                    "code": "mmol/L"
                },
                "interpretation": [
                    {
                        "coding": [
                            {
                                "system": "http://terminology.hl7.org/CodeSystem/v3-ObservationInterpretation",
                                "code": "H"
                            }
                        ]
                    }
                ],
                "referenceRange": [
                    {
                        "low": {
                            "value": 3.1,
                            "unit": "mmol/L",
                            "system": "http://unitsofmeasure.org",
                            "code": "mmol/L"
                        },
                        "high": {
                            "value": 6.2,
                            "unit": "mmol/L",
                            "system": "http://unitsofmeasure.org",
                            "code": "mmol/L"
                        },
                        "type": {
                            "coding": [
                                {
                                    "system": "http://terminology.hl7.org/CodeSystem/referencerange-meaning",
                                    "code": "type"
                                }
                            ]
                        }
                    }
                ]
            },
            "request": {
                "method": "PUT",
                "url": "Observation/{{randonBloodSugar}}"
            }
        },
        {
            "fullUrl": "http://hapi-fhir:8080/fhir/Observation/{{fastingBloodSugar}}",
            "resource": {
                "resourceType": "Observation",
                "id": "{{fastingBloodSugar}}",
                "meta": {
                    "profile": [
                        "http://fhir.health.gov.lk/ips/StructureDefinition/fasting-blood-sugar"
                    ]
                },
                "device": {
                    "reference": "Device/{{deviceinformation}}"
                },
                "status": "final",
                "category": [
                    {
                        "coding": [
                            {
                                "system": "http://terminology.hl7.org/CodeSystem/observation-category",
                                "code": "laboratory"
                            }
                        ]
                    }
                ],
                "code": {
                    "coding": [
                        {
                            "system": "http://loinc.org",
                            "code": "76629-5"
                        }
                    ],
                    "text": "Fasting glucose"
                },
                "subject": {
                    "reference": "Patient/{{patient}}"
                },
                "encounter": {
                    "reference": "Encounter/{{encounter}}"
                },
                "effectiveDateTime": "{{fastingBloodSugarObservationDate}}",
                "performer": [
                    {
                        "reference": "Organization/{{organization}}"
                    },
                    {
                        "reference": "Practitioner/{{practitioner}}"
                    }
                ],
                "valueQuantity": {
                    "value": 5.4,
                    "unit": "mmol/L",
                    "system": "http://unitsofmeasure.org",
                    "code": "mmol/L"
                },
                "interpretation": [
                    {
                        "coding": [
                            {
                                "system": "http://terminology.hl7.org/CodeSystem/v3-ObservationInterpretation",
                                "code": "N"
                            }
                        ]
                    }
                ],
                "referenceRange": [
                    {
                        "low": {
                            "value": 3.9,
                            "unit": "mmol/L",
                            "system": "http://unitsofmeasure.org",
                            "code": "mmol/L"
                        },
                        "high": {
                            "value": 5.6,
                            "unit": "mmol/L",
                            "system": "http://unitsofmeasure.org",
                            "code": "mmol/L"
                        },
                        "type": {
                            "coding": [
                                {
                                    "system": "http://terminology.hl7.org/CodeSystem/referencerange-meaning",
                                    "code": "type"
                                }
                            ]
                        }
                    }
                ]
            },
            "request": {
                "method": "PUT",
                "url": "Observation/{{fastingBloodSugar}}"
            }
        },
        {
            "fullUrl": "http://hapi-fhir:8080/fhir/Observation/{{totalCholesterol}}",
            "resource": {
                "resourceType": "Observation",
                "id": "{{totalCholesterol}}",
                "meta": {
                    "profile": [
                        "http://fhir.health.gov.lk/ips/StructureDefinition/total-cholesterol"
                    ]
                },
                "device": {
                    "reference": "Device/{{deviceinformation}}"
                },
                "status": "final",
                "category": [
                    {
                        "coding": [
                            {
                                "system": "http://terminology.hl7.org/CodeSystem/observation-category",
                                "code": "laboratory"
                            }
                        ]
                    }
                ],
                "code": {
                    "coding": [
                        {
                            "system": "http://loinc.org",
                            "code": "2093-3"
                        }
                    ],
                    "text": "Cholesterol"
                },
                "subject": {
                    "reference": "Patient/{{patient}}"
                },
                "encounter": {
                    "reference": "Encounter/{{encounter}}"
                },
                "effectiveDateTime": "{{totalCholesterolObservationDate}}",
                "performer": [
                    {
                        "reference": "Organization/{{organization}}"
                    },
                    {
                        "reference": "Practitioner/{{practitioner}}"
                    }
                ],
                "valueQuantity": {
                    "value": 6.3,
                    "unit": "mmol/L",
                    "system": "http://unitsofmeasure.org",
                    "code": "mmol/L"
                },
                "interpretation": [
                    {
                        "coding": [
                            {
                                "system": "http://terminology.hl7.org/CodeSystem/v3-ObservationInterpretation",
                                "code": "H"
                            }
                        ]
                    }
                ],
                "referenceRange": [
                    {
                        "high": {
                            "value": 5,
                            "unit": "mmol/L",
                            "system": "http://unitsofmeasure.org",
                            "code": "mmol/L"
                        },
                        "type": {
                            "coding": [
                                {
                                    "system": "http://terminology.hl7.org/CodeSystem/referencerange-meaning",
                                    "code": "type"
                                }
                            ]
                        }
                    }
                ]
            },
            "request": {
                "method": "PUT",
                "url": "Observation/{{totalCholesterol}}"
            }
        },
        {
            "fullUrl": "http://hapi-fhir:8080/fhir/AllergyIntolerance/{{noAllergies}}",
            "resource": {
                "resourceType": "AllergyIntolerance",
                "id": "{{noAllergies}}",
                "meta": {
                    "profile": [
                        "http://fhir.health.gov.lk/ips/StructureDefinition/no-allergy-intolerance"
                    ]
                },
                "clinicalStatus": {
                    "coding": [
                        {
                            "system": "http://terminology.hl7.org/CodeSystem/allergyintolerance-clinical",
                            "code": "inactive"
                        }
                    ]
                },
                "type": "allergy",
                "code": {
                    "coding": [
                        {
                            "system": "http://hl7.org/fhir/uv/ips/CodeSystem/absent-unknown-uv-ips",
                            "code": "no-allergy-info"
                        }
                    ],
                    "text": "No information about allergies"
                },
                "patient": {
                    "reference": "Patient/{{patient}}"
                },
                "encounter": {
                    "reference": "Encounter/{{encounter}}"
                }
            },
            "request": {
                "method": "PUT",
                "url": "AllergyIntolerance/{{noAllergies}}"
            }
        },
        {
            "fullUrl": "http://hapi-fhir:8080/fhir/MedicationRequest/{{noPrescriptions}}",
            "resource": {
                "resourceType": "MedicationRequest",
                "id": "{{noPrescriptions}}",
                "meta": {
                    "profile": [
                        "http://fhir.health.gov.lk/ips/StructureDefinition/no-medication-requested"
                    ]
                },
                "status": "completed",
                "intent": "order",
                "medicationCodeableConcept": {
                    "coding": [
                        {
                            "system": "http://hl7.org/fhir/uv/ips/CodeSystem/absent-unknown-uv-ips",
                            "code": "no-medication-info"
                        }
                    ]
                },
                "subject": {
                    "reference": "Patient/{{patient}}"
                },
                "encounter": {
                    "reference": "Encounter/{{encounter}}"
                },
                "note": [
                    {
                        "authorReference": {
                            "reference": "Organization/{{organization}}"
                        },
                        "time": "2023-10-11T17:21:33-08:00",
                        "text": "Additional information"
                    }
                ],
                "authoredOn": "{{medication-request-authored-on}}"
            },
            "request": {
                "method": "PUT",
                "url": "MedicationRequest/{{noPrescriptions}}"
            }
        },
        {
            "fullUrl": "http://hapi-fhir:8080/fhir/RiskAssessment/{{riskAssessment}}",
            "resource": {
                "resourceType": "RiskAssessment",
                "id": "{{riskAssessment}}",
                "meta": {
                    "profile": [
                        "http://fhir.health.gov.lk/ips/StructureDefinition/cvd-risk-category"
                    ]
                },
                "status": "final",
                "code": {
                    "coding": [
                        {
                            "system": "http://snomed.info/sct",
                            "code": "441829007"
                        }
                    ],
                    "text": "Assessment for risk of cardiovascular disease"
                },
                "subject": {
                    "reference": "Patient/{{patient}}"
                },
                "encounter": {
                    "reference": "Encounter/{{encounter}}"
                },
                "occurrenceDateTime": "{{assessmentDate}}",
                "performer": {
                    "reference": "Practitioner/{{practitioner}}"
                },
                "basis": [
                    {
                        "reference": "Patient/{{patient}}"
                    },
                    {
                        "reference": "Observation/{{tobaccoSmoker}}"
                    },
                    {
                        "reference": "Observation/{{totalCholesterol}}"
                    },
                    {
                        "reference": "Observation/{{bloodPressure}}"
                    },
                    {
                        "reference": "Observation/{{randomBloodSugar}}"
                    },
                    {
                        "reference": "Observation/{{fastingBloodSugar}}"
                    }
                ],
                "prediction": [
                    {
                        "outcome": {
                            "coding": [
                                {
                                    "system": "http://snomed.info/sct",
                                    "code": "395112001"
                                }
                            ],
                            "text": "Risk of heart attack"
                        },
                        "probabilityDecimal": 0.02,
                        "qualitativeRisk": {
                            "coding": [
                                {
                                    "system": "http://fhir.health.gov.lk/ips/CodeSystem/cs-cvd-risk-category",
                                    "code": "Critical"
                                }
                            ],
                            "text": "Risk Category"
                        },
                        "whenRange": {
                            "low": {
                                "value": 39,
                                "unit": "years",
                                "system": "http://unitsofmeasure.org",
                                "code": "a"
                            },
                            "high": {
                                "value": 49,
                                "unit": "years",
                                "system": "http://unitsofmeasure.org",
                                "code": "a"
                            }
                        }
                    }
                ]
            },
            "request": {
                "method": "PUT",
                "url": "RiskAssessment/{{riskAssessment}}"
            }
        },
        {
            "fullUrl": "http://hapi-fhir:8080/fhir/CarePlan/{{followUpAtHLC}}",
            "resource": {
                "resourceType": "CarePlan",
                "id": "{{followUpAtHLC}}",
                "meta": {
                    "profile": [
                        "http://fhir.health.gov.lk/ips/StructureDefinition/follow-up-at-hlc"
                    ]
                },
                "status": "active",
                "intent": "order",
                "subject": {
                    "reference": "Patient/{{patient}}"
                },
                "encounter": {
                    "reference": "Encounter/{{encounter}}"
                },
                "period": {
                    "start": "{{followUpDate}}"
                },
                "contributor": [
                    {
                        "reference": "Organization/{{organization}}"
                    }
                ],
                "activity": [
                    {
                        "reference": {
                            "reference": "ServiceRequest/{{followUpPlanServiceRequest}}"
                        }
                    }
                ]
            },
            "request": {
                "method": "PUT",
                "url": "CarePlan/{{followUpAtHLC}}"
            }
        },
        {
            "fullUrl": "http://hapi-fhir:8080/fhir/ServiceRequest/{{followUpPlanServiceRequest}}",
            "resource": {
                "resourceType": "ServiceRequest",
                "id": "{{followUpPlanServiceRequest}}",
                "meta": {
                    "profile": [
                        "http://fhir.health.gov.lk/ips/StructureDefinition/follow-up-plan"
                    ]
                },
                "status": "completed",
                "intent": "order",
                "code": {
                    "coding": [
                        {
                            "system": "http://snomed.info/sct",
                            "code": "410321003"
                        }
                    ],
                    "text": "Follow up at HLC"
                },
                "subject": {
                    "reference": "Patient/{{patient}}"
                },
                "encounter": {
                    "reference": "Encounter/{{encounter}}"
                },
                "occurrenceTiming": {
                    "repeat": {
                        "count": 1,
                        "duration": 3,
                        "durationUnit": "mo"
                    }
                },
                "requester": {
                    "reference": "Practitioner/{{practitioner}}"
                },
                "locationReference": [
                    {
                        "reference": "Location/{{location}}"
                    }
                ],
                "reasonCode": [
                    {
                        "coding": [
                            {
                                "system": "http://fhir.health.gov.lk/ips/CodeSystem/cs-follow-up-reasons",
                                "code": "Followed-in-3-years-at-hlc"
                            }
                        ],
                        "text": "Followed in 6 months at HLC"
                    }
                ]
            },
            "request": {
                "method": "PUT",
                "url": "ServiceRequest/{{followUpPlanServiceRequest}}"
            }
        },
        {
            "fullUrl": "http://hapi-fhir:8080/fhir/Practitioner/{{practitioner}}",
            "resource": {
                "resourceType": "Practitioner",
                "id": "{{practitioner}}",
                "meta": {
                    "profile": [
                        "http://fhir.health.gov.lk/ips/StructureDefinition/practitioner"
                    ]
                },
                "name": [
                    {
                        "family": "{{$randomLastName}}",
                        "given": [
                            "{{$randomFirstName}}",
                            "{{$randomFirstName}}"
                        ],
                        "prefix": [
                            "{{$randomNamePrefix}}"
                        ]
                    }
                ],
                "telecom": [
                    {
                        "system": "phone",
                        "value": "{{$randomPhoneNumber}}",
                        "use": "work"
                    },
                    {
                        "system": "email",
                        "value": "{{$randomEmail}}",
                        "use": "home"
                    }
                ]
            },
            "request": {
                "method": "PUT",
                "url": "Practitioner/{{practitioner}}"
            }
        },
        {
            "fullUrl": "http://hapi-fhir:8080/fhir/Location/{{location}}",
            "resource": {
                "resourceType": "Location",
                "id": "{{location}}",
                "meta": {
                    "profile": [
                        "http://fhir.health.gov.lk/ips/StructureDefinition/providers-location"
                    ]
                },
                "identifier": [
                    {
                        "type": {
                            "coding": [
                                {
                                    "system": "http://fhir.health.gov.lk/ips/CodeSystem/cs-identifier-types",
                                    "code": "PLOC"
                                }
                            ],
                            "text": "Provider location identifier"
                        },
                        "system": "http://fhir.health.gov.lk/ips/identifier/provider-location",
                        "value": "Location-ID-1"
                    },
                    {
                        "type": {
                            "coding": [
                                {
                                    "system": "http://fhir.health.gov.lk/ips/CodeSystem/cs-identifier-types",
                                    "code": "PLOC"
                                }
                            ],
                            "text": "Provider location identifier"
                        },
                        "system": "http://fhir.health.gov.lk/ips/identifier/provider-location",
                        "value": "Location-ID-2"
                    }
                ],
                "status": "active",
                "name": "Name for the location",
                "telecom": [
                    {
                        "system": "phone",
                        "value": "{{$randomPhoneNumber}}"
                    },
                    {
                        "system": "email",
                        "value": "{{$randomEmail}}"
                    },
                    {
                        "system": "email",
                        "value": "{{$randomEmail}}"
                    }
                ],
                "address": {
                    "type": "postal",
                    "line": [
                        "177",
                        "Nawala Road"
                    ],
                    "city": "Nugegoda",
                    "district": "Ampara",
                    "state": "Colombo",
                    "postalCode": "32350",
                    "country": "LK"
                },
                "managingOrganization": {
                    "reference": "Organization/{{organization}}"
                }
            },
            "request": {
                "method": "PUT",
                "url": "Location/{{location}}"
            }
        },
        {
            "fullUrl": "http://hapi-fhir:8080/fhir/Organization/{{organization}}",
            "resource": {
                "resourceType": "Organization",
                "id": "{{organization}}",
                "meta": {
                    "profile": [
                        "http://fhir.health.gov.lk/ips/StructureDefinition/organization"
                    ]
                },
                "identifier": [
                    {
                        "type": {
                            "coding": [
                                {
                                    "system": "http://terminology.hl7.org/CodeSystem/v2-0203",
                                    "code": "XX"
                                }
                            ],
                            "text": "Organization identifier"
                        },
                        "system": "http://fhir.health.gov.lk/ips/identifier/organization",
                        "value": "{{FacilityID}}"
                    }
                ],
                "name": "Some Health Facility"
            },
            "request": {
                "method": "PUT",
                "url": "Organization/{{organization}}"
            }
        },
        {
            "fullUrl": "http://hapi-fhir:8080/fhir/Device/{{deviceinformation}}",
            "resource": {
                "resourceType": "Device",
                "id": "{{deviceinformation}}",
                "meta": {
                    "profile": [
                        "http://fhir.health.gov.lk/ips/StructureDefinition/device-information"
                    ]
                },
                "identifier": [
                    {
                        "system": "http://fhir.health.gov.lk/ips/identifier/system-id",
                        "value": "{{device-system-id}}"
                    }
                ],
                "status": "active",
                "type": {
                    "coding": [
                        {
                            "system": "http://snomed.info/sct",
                            "code": "129465004"
                        }
                    ]
                },
                "version": [
                    {
                        "type": {
                            "coding": [
                                {
                                    "system": "http://fhir.health.gov.lk/ips/CodeSystem/cs-device-classification",
                                    "code": "OpenMRS"
                                }
                            ]
                        },
                        "value": "2.5.0"
                    }
                ],
                "owner": {
                    "reference": "Organization/{{organization}}"
                },
                "location": {
                    "reference": "Location/{{location}}"
                }
            },
            "request": {
                "method": "PUT",
                "url": "Device/{{deviceinformation}}"
            }
        }
    ]
}